{
  "resourceType" : "Bundle",
  "id" : "39de585d-6b85-4a9c-bdb6-a07c196a7d2f",
  "type" : "transaction",
  "entry" : [{
    "fullUrl" : "https://aphp.fr/Patient/49fe3277-fa12-431f-8e98-f889b7859eb2",
    "resource" : {
      "resourceType" : "Patient",
      "id" : "49fe3277-fa12-431f-8e98-f889b7859eb2",
      "meta" : {
        "source" : "https://aphp.fr/fhir/Endpoint/dpi/PatientTable/1"
      },
      "name" : [{
        "use" : "usual",
        "text" : "john doe",
        "family" : "doe",
        "given" : ["john"]
      }],
      "gender" : "male",
      "birthDate" : "1948-07-16",
      "address" : [{
        "extension" : [{
          "extension" : [{
            "url" : "latitude",
            "valueDecimal" : 49.2
          },
          {
            "url" : "longitude",
            "valueDecimal" : 1.2
          }],
          "url" : "http://hl7.org/fhir/StructureDefinition/geolocation"
        }],
        "use" : "home",
        "text" : "18 Grand Rue",
        "city" : "Dampierre",
        "postalCode" : "78720",
        "country" : "France"
      },
      {
        "extension" : [{
          "extension" : [{
            "url" : "latitude",
            "valueDecimal" : 49.451697
          },
          {
            "url" : "longitude",
            "valueDecimal" : 1.095129
          }],
          "url" : "http://hl7.org/fhir/StructureDefinition/geolocation"
        }],
        "use" : "old",
        "text" : "1 rue Malatiré",
        "city" : "Rouen",
        "postalCode" : "76000",
        "country" : "France"
      }]
    },
    "request" : {
      "method" : "POST",
      "url" : "Patient/49fe3277-fa12-431f-8e98-f889b7859eb2"
    }
  },
  {
    "fullUrl" : "https://aphp.fr/Encounter/103ee156-eadc-4da7-9fa2-8d90c59fc50f",
    "resource" : {
      "resourceType" : "Encounter",
      "id" : "103ee156-eadc-4da7-9fa2-8d90c59fc50f",
      "meta" : {
        "source" : "https://aphp.fr/fhir/Endpoint/dpi/SejourTable/1"
      },
      "status" : "finished",
      "class" : {
        "coding" : [{
          "system" : "http://terminology.hl7.org/CodeSystem/v3-ActCode",
          "code" : "IMP",
          "display" : "inpatient encounter"
        }]
      },
      "subject" : {
        "reference" : "Patient/49fe3277-fa12-431f-8e98-f889b7859eb2"
      },
      "period" : {
        "start" : "2025-02-04",
        "end" : "2025-02-05"
      }
    },
    "request" : {
      "method" : "POST",
      "url" : "Encounter/103ee156-eadc-4da7-9fa2-8d90c59fc50f"
    }
  },
  {
    "fullUrl" : "https://aphp.fr/Procedure/5c150019-5ca0-4043-9b11-8ddfd0994577",
    "resource" : {
      "resourceType" : "Procedure",
      "id" : "5c150019-5ca0-4043-9b11-8ddfd0994577",
      "meta" : {
        "source" : "https://aphp.fr/fhir/Endpoint/dpi/ActeTable/1"
      },
      "status" : "completed",
      "code" : {
        "coding" : [{
          "system" : "https://smt.esante.gouv.fr/terminologie-ccam",
          "code" : "HFFC0044"
        }]
      },
      "subject" : {
        "reference" : "Patient/49fe3277-fa12-431f-8e98-f889b7859eb2"
      },
      "encounter" : {
        "reference" : "Encounter/103ee156-eadc-4da7-9fa2-8d90c59fc50f"
      },
      "performedPeriod" : {
        "start" : "2025-02-04T10:00:00Z",
        "end" : "2025-02-04T12:30:00Z"
      }
    },
    "request" : {
      "method" : "POST",
      "url" : "Procedure/5c150019-5ca0-4043-9b11-8ddfd0994577"
    }
  },
  {
    "fullUrl" : "https://aphp.fr/Condition/6eba9c28-4458-4cdb-af5e-7434f11dd34b",
    "resource" : {
      "resourceType" : "Condition",
      "id" : "6eba9c28-4458-4cdb-af5e-7434f11dd34b",
      "meta" : {
        "source" : "https://aphp.fr/fhir/Endpoint/dpi/DiagTable/1"
      },
      "category" : [{
        "coding" : [{
          "system" : "http://terminology.hl7.org/CodeSystem/condition-category",
          "code" : "encouter-diagnosis"
        }]
      }],
      "code" : {
        "coding" : [{
          "system" : "http://hl7.org/fhir/sid/icd-10",
          "code" : "J41.1"
        }]
      },
      "subject" : {
        "reference" : "Patient/49fe3277-fa12-431f-8e98-f889b7859eb2"
      },
      "encounter" : {
        "reference" : "Encounter/103ee156-eadc-4da7-9fa2-8d90c59fc50f"
      }
    },
    "request" : {
      "method" : "POST",
      "url" : "Condition/6eba9c28-4458-4cdb-af5e-7434f11dd34b"
    }
  },
  {
    "fullUrl" : "https://aphp.fr/Observation/2c8e13b1-2179-46dd-9158-17bd70c89e56",
    "resource" : {
      "resourceType" : "Observation",
      "id" : "2c8e13b1-2179-46dd-9158-17bd70c89e56",
      "meta" : {
        "source" : "https://aphp.fr/fhir/Endpoint/dpi/BiologyTable/1"
      },
      "status" : "final",
      "category" : [{
        "coding" : [{
          "system" : "http://terminology.hl7.org/CodeSystem/observation-category",
          "code" : "vital-signs",
          "display" : "Vital Signs"
        }]
      }],
      "code" : {
        "coding" : [{
          "system" : "http://loinc.org",
          "code" : "29463-7"
        }]
      },
      "subject" : {
        "reference" : "Patient/49fe3277-fa12-431f-8e98-f889b7859eb2"
      },
      "encounter" : {
        "reference" : "Encounter/103ee156-eadc-4da7-9fa2-8d90c59fc50f"
      },
      "effectiveDateTime" : "2025-02-04T09:30:10+01:00",
      "valueQuantity" : {
        "value" : 45.5,
        "unit" : "kg",
        "system" : "http://unitsofmeasure.org",
        "code" : "kg"
      }
    },
    "request" : {
      "method" : "POST",
      "url" : "Observation/2c8e13b1-2179-46dd-9158-17bd70c89e56"
    }
  },
  {
    "fullUrl" : "https://aphp.fr/Encounter/ab197461-55ce-448b-8c45-7d0fb9023f54",
    "resource" : {
      "resourceType" : "Encounter",
      "id" : "ab197461-55ce-448b-8c45-7d0fb9023f54",
      "meta" : {
        "source" : "https://aphp.fr/fhir/Endpoint/dpi/SejourTable/2"
      },
      "status" : "finished",
      "class" : {
        "coding" : [{
          "system" : "http://terminology.hl7.org/CodeSystem/v3-ActCode",
          "code" : "IMP",
          "display" : "inpatient encounter"
        }]
      },
      "subject" : {
        "reference" : "Patient/49fe3277-fa12-431f-8e98-f889b7859eb2"
      },
      "period" : {
        "start" : "2025-03-04"
      }
    },
    "request" : {
      "method" : "POST",
      "url" : "Encounter/ab197461-55ce-448b-8c45-7d0fb9023f54"
    }
  },
  {
    "fullUrl" : "https://aphp.fr/Condition/94e366f5-5afb-4c32-9845-8eff9c246703",
    "resource" : {
      "resourceType" : "Condition",
      "id" : "94e366f5-5afb-4c32-9845-8eff9c246703",
      "meta" : {
        "source" : "https://aphp.fr/fhir/Endpoint/dpi/DiagTable/2"
      },
      "category" : [{
        "coding" : [{
          "system" : "http://terminology.hl7.org/CodeSystem/condition-category",
          "code" : "encouter-diagnosis"
        }]
      }],
      "code" : {
        "coding" : [{
          "system" : "http://hl7.org/fhir/sid/icd-10",
          "code" : "I10"
        }]
      },
      "subject" : {
        "reference" : "Patient/49fe3277-fa12-431f-8e98-f889b7859eb2"
      },
      "encounter" : {
        "reference" : "Encounter/ab197461-55ce-448b-8c45-7d0fb9023f54"
      }
    },
    "request" : {
      "method" : "POST",
      "url" : "Condition/94e366f5-5afb-4c32-9845-8eff9c246703"
    }
  }]
}