{
  "resourceType" : "Bundle",
  "id" : "5ffa8d78-eae5-48bb-8507-ed541096942e",
  "type" : "transaction",
  "entry" : [{
    "fullUrl" : "https://aphp.fr/Patient/06c423fb-e9c2-4dc6-bfd6-b56080caccf6",
    "resource" : {
      "resourceType" : "Patient",
      "id" : "06c423fb-e9c2-4dc6-bfd6-b56080caccf6",
      "meta" : {
        "source" : "https://aphp.fr/fhir/Endpoint/dpi/PatientTable/1"
      },
      "name" : [{
        "use" : "usual",
        "text" : "john doe",
        "family" : "doe",
        "given" : ["john"]
      }],
      "gender" : "male",
      "birthDate" : "1948-07-16"
    },
    "request" : {
      "method" : "POST",
      "url" : "Patient/06c423fb-e9c2-4dc6-bfd6-b56080caccf6"
    }
  },
  {
    "fullUrl" : "https://aphp.fr/Encounter/3bffe646-7612-425f-af20-c068546bcd0a",
    "resource" : {
      "resourceType" : "Encounter",
      "id" : "3bffe646-7612-425f-af20-c068546bcd0a",
      "meta" : {
        "source" : "https://aphp.fr/fhir/Endpoint/dpi/SejourTable/1"
      },
      "status" : "finished",
      "class" : {
        "system" : "http://terminology.hl7.org/CodeSystem/v3-ActCode",
        "code" : "IMP",
        "display" : "inpatient encounter"
      },
      "type" : [{
        "coding" : [{
          "system" : "https://aphp.fr/ig/fhir/dm/CodeSystem/SemanticLayerEncounterType",
          "code" : "b",
          "display" : "Type B"
        }]
      }],
      "subject" : {
        "reference" : "Patient/06c423fb-e9c2-4dc6-bfd6-b56080caccf6"
      },
      "period" : {
        "start" : "2025-02-04",
        "end" : "2025-02-05"
      }
    },
    "request" : {
      "method" : "POST",
      "url" : "Encounter/3bffe646-7612-425f-af20-c068546bcd0a"
    }
  },
  {
    "fullUrl" : "https://aphp.fr/Observation/5b928484-36e1-4a2b-971a-26e6a7862a89",
    "resource" : {
      "resourceType" : "Observation",
      "id" : "5b928484-36e1-4a2b-971a-26e6a7862a89",
      "meta" : {
        "source" : "https://aphp.fr/fhir/Endpoint/dpi/BiologyTable/1"
      },
      "status" : "final",
      "category" : [{
        "coding" : [{
          "system" : "http://terminology.hl7.org/CodeSystem/observation-category",
          "code" : "vital-signs",
          "display" : "Vital Signs"
        }]
      }],
      "code" : {
        "coding" : [{
          "system" : "http://loinc.org",
          "code" : "29463-7"
        }]
      },
      "subject" : {
        "reference" : "Patient/06c423fb-e9c2-4dc6-bfd6-b56080caccf6"
      },
      "encounter" : {
        "reference" : "Encounter/3bffe646-7612-425f-af20-c068546bcd0a"
      },
      "effectiveDateTime" : "2025-02-04T09:30:10+01:00",
      "valueQuantity" : {
        "value" : 45.5,
        "unit" : "kg",
        "system" : "http://unitsofmeasure.org",
        "code" : "kg"
      }
    },
    "request" : {
      "method" : "POST",
      "url" : "Observation/5b928484-36e1-4a2b-971a-26e6a7862a89"
    }
  },
  {
    "fullUrl" : "https://aphp.fr/Encounter/290f200f-2339-4c5d-9824-4f45bcb3024c",
    "resource" : {
      "resourceType" : "Encounter",
      "id" : "290f200f-2339-4c5d-9824-4f45bcb3024c",
      "meta" : {
        "source" : "https://aphp.fr/fhir/Endpoint/dpi/SejourTable/2"
      },
      "status" : "finished",
      "class" : {
        "system" : "http://terminology.hl7.org/CodeSystem/v3-ActCode",
        "code" : "IMP",
        "display" : "inpatient encounter"
      },
      "type" : [{
        "coding" : [{
          "system" : "https://aphp.fr/ig/fhir/dm/CodeSystem/SemanticLayerEncounterType",
          "code" : "b",
          "display" : "Type B"
        }]
      }],
      "subject" : {
        "reference" : "Patient/06c423fb-e9c2-4dc6-bfd6-b56080caccf6"
      },
      "period" : {
        "start" : "2025-03-04"
      }
    },
    "request" : {
      "method" : "POST",
      "url" : "Encounter/290f200f-2339-4c5d-9824-4f45bcb3024c"
    }
  }]
}