{
  "resourceType" : "Bundle",
  "id" : "2abf7f4c-bd1f-431f-a4c8-667cfa425baf",
  "type" : "transaction",
  "entry" : [{
    "fullUrl" : "https://aphp.fr/Patient/c9ceac8e-8ae4-4cb7-8e99-82549909ce29",
    "resource" : {
      "resourceType" : "Patient",
      "id" : "c9ceac8e-8ae4-4cb7-8e99-82549909ce29",
      "meta" : {
        "source" : "https://aphp.fr/fhir/Endpoint/dpi/PatientTable/1"
      },
      "name" : [{
        "use" : "usual",
        "text" : "john doe",
        "family" : "doe",
        "given" : ["john"]
      }],
      "gender" : "male",
      "birthDate" : "1948-07-16",
      "address" : [{
        "extension" : [{
          "extension" : [{
            "url" : "latitude",
            "valueDecimal" : 49.2
          },
          {
            "url" : "longitude",
            "valueDecimal" : 1.2
          }],
          "url" : "http://hl7.org/fhir/StructureDefinition/geolocation"
        }],
        "use" : "home",
        "text" : "18 Grand Rue",
        "city" : "Dampierre",
        "postalCode" : "78720",
        "country" : "France"
      },
      {
        "extension" : [{
          "extension" : [{
            "url" : "latitude",
            "valueDecimal" : 49.451697
          },
          {
            "url" : "longitude",
            "valueDecimal" : 1.095129
          }],
          "url" : "http://hl7.org/fhir/StructureDefinition/geolocation"
        }],
        "use" : "old",
        "text" : "1 rue Malatiré",
        "city" : "Rouen",
        "postalCode" : "76000",
        "country" : "France"
      }]
    },
    "request" : {
      "method" : "POST",
      "url" : "Patient/c9ceac8e-8ae4-4cb7-8e99-82549909ce29"
    }
  },
  {
    "fullUrl" : "https://aphp.fr/Encounter/0c3bd64b-9f64-456a-b40f-de7a28366f9d",
    "resource" : {
      "resourceType" : "Encounter",
      "id" : "0c3bd64b-9f64-456a-b40f-de7a28366f9d",
      "meta" : {
        "source" : "https://aphp.fr/fhir/Endpoint/dpi/SejourTable/1"
      },
      "status" : "finished",
      "class" : {
        "system" : "http://terminology.hl7.org/CodeSystem/v3-ActCode",
        "code" : "IMP",
        "display" : "inpatient encounter"
      },
      "subject" : {
        "reference" : "Patient/c9ceac8e-8ae4-4cb7-8e99-82549909ce29"
      },
      "period" : {
        "start" : "2025-02-04",
        "end" : "2025-02-05"
      }
    },
    "request" : {
      "method" : "POST",
      "url" : "Encounter/0c3bd64b-9f64-456a-b40f-de7a28366f9d"
    }
  },
  {
    "fullUrl" : "https://aphp.fr/Procedure/779a5b0a-013e-4872-b8ce-6a2ee307d240",
    "resource" : {
      "resourceType" : "Procedure",
      "id" : "779a5b0a-013e-4872-b8ce-6a2ee307d240",
      "meta" : {
        "source" : "https://aphp.fr/fhir/Endpoint/dpi/ActeTable/1"
      },
      "status" : "completed",
      "code" : {
        "coding" : [{
          "system" : "https://smt.esante.gouv.fr/terminologie-ccam",
          "code" : "HFFC0044"
        }]
      },
      "subject" : {
        "reference" : "Patient/c9ceac8e-8ae4-4cb7-8e99-82549909ce29"
      },
      "encounter" : {
        "reference" : "Encounter/0c3bd64b-9f64-456a-b40f-de7a28366f9d"
      },
      "performedPeriod" : {
        "start" : "2025-02-04T10:00:00Z",
        "end" : "2025-02-04T12:30:00Z"
      }
    },
    "request" : {
      "method" : "POST",
      "url" : "Procedure/779a5b0a-013e-4872-b8ce-6a2ee307d240"
    }
  },
  {
    "fullUrl" : "https://aphp.fr/Condition/579e3f8d-0716-40a1-9eec-694393f59209",
    "resource" : {
      "resourceType" : "Condition",
      "id" : "579e3f8d-0716-40a1-9eec-694393f59209",
      "meta" : {
        "source" : "https://aphp.fr/fhir/Endpoint/dpi/DiagTable/1"
      },
      "category" : [{
        "coding" : [{
          "system" : "http://terminology.hl7.org/CodeSystem/condition-category",
          "code" : "encounter-diagnosis",
          "display" : "Encounter Diagnosis"
        }]
      }],
      "code" : {
        "coding" : [{
          "system" : "http://hl7.org/fhir/sid/icd-10",
          "code" : "J41.1"
        }]
      },
      "subject" : {
        "reference" : "Patient/c9ceac8e-8ae4-4cb7-8e99-82549909ce29"
      },
      "encounter" : {
        "reference" : "Encounter/0c3bd64b-9f64-456a-b40f-de7a28366f9d"
      }
    },
    "request" : {
      "method" : "POST",
      "url" : "Condition/579e3f8d-0716-40a1-9eec-694393f59209"
    }
  },
  {
    "fullUrl" : "https://aphp.fr/Observation/79195715-0c2d-45b5-80d1-992d216c084f",
    "resource" : {
      "resourceType" : "Observation",
      "id" : "79195715-0c2d-45b5-80d1-992d216c084f",
      "meta" : {
        "source" : "https://aphp.fr/fhir/Endpoint/dpi/BiologyTable/1"
      },
      "status" : "final",
      "category" : [{
        "coding" : [{
          "system" : "http://terminology.hl7.org/CodeSystem/observation-category",
          "code" : "vital-signs",
          "display" : "Vital Signs"
        }]
      }],
      "code" : {
        "coding" : [{
          "system" : "http://loinc.org",
          "code" : "29463-7"
        }]
      },
      "subject" : {
        "reference" : "Patient/c9ceac8e-8ae4-4cb7-8e99-82549909ce29"
      },
      "encounter" : {
        "reference" : "Encounter/0c3bd64b-9f64-456a-b40f-de7a28366f9d"
      },
      "effectiveDateTime" : "2025-02-04T09:30:10+01:00",
      "valueQuantity" : {
        "value" : 45.5,
        "unit" : "kg",
        "system" : "http://unitsofmeasure.org",
        "code" : "kg"
      }
    },
    "request" : {
      "method" : "POST",
      "url" : "Observation/79195715-0c2d-45b5-80d1-992d216c084f"
    }
  },
  {
    "fullUrl" : "https://aphp.fr/Encounter/16d06e18-073e-42b2-b9a1-3ff5d61c5623",
    "resource" : {
      "resourceType" : "Encounter",
      "id" : "16d06e18-073e-42b2-b9a1-3ff5d61c5623",
      "meta" : {
        "source" : "https://aphp.fr/fhir/Endpoint/dpi/SejourTable/2"
      },
      "status" : "finished",
      "class" : {
        "system" : "http://terminology.hl7.org/CodeSystem/v3-ActCode",
        "code" : "IMP",
        "display" : "inpatient encounter"
      },
      "subject" : {
        "reference" : "Patient/c9ceac8e-8ae4-4cb7-8e99-82549909ce29"
      },
      "period" : {
        "start" : "2025-03-04"
      }
    },
    "request" : {
      "method" : "POST",
      "url" : "Encounter/16d06e18-073e-42b2-b9a1-3ff5d61c5623"
    }
  },
  {
    "fullUrl" : "https://aphp.fr/Condition/a81b1210-77ef-4008-85b0-07d6334feaad",
    "resource" : {
      "resourceType" : "Condition",
      "id" : "a81b1210-77ef-4008-85b0-07d6334feaad",
      "meta" : {
        "source" : "https://aphp.fr/fhir/Endpoint/dpi/DiagTable/2"
      },
      "category" : [{
        "coding" : [{
          "system" : "http://terminology.hl7.org/CodeSystem/condition-category",
          "code" : "encounter-diagnosis",
          "display" : "Encounter Diagnosis"
        }]
      }],
      "code" : {
        "coding" : [{
          "system" : "http://hl7.org/fhir/sid/icd-10",
          "code" : "I10"
        }]
      },
      "subject" : {
        "reference" : "Patient/c9ceac8e-8ae4-4cb7-8e99-82549909ce29"
      },
      "encounter" : {
        "reference" : "Encounter/16d06e18-073e-42b2-b9a1-3ff5d61c5623"
      }
    },
    "request" : {
      "method" : "POST",
      "url" : "Condition/a81b1210-77ef-4008-85b0-07d6334feaad"
    }
  }]
}