{
  "resourceType" : "Bundle",
  "id" : "df9c9a9c-854b-46f4-9687-1fbe40c06540",
  "type" : "collection",
  "entry" : [{
    "fullUrl" : "urn:ehr:Patient/335e88ca-a2d7-4caa-95a8-06f55f3b3c4e",
    "resource" : {
      "resourceType" : "Patient",
      "id" : "335e88ca-a2d7-4caa-95a8-06f55f3b3c4e",
      "identifier" : [{
        "use" : "usual",
        "type" : {
          "coding" : [{
            "system" : "http://terminology.hl7.org/CodeSystem/v2-0203",
            "code" : "PI",
            "display" : "Patient internal identifier"
          }]
        },
        "system" : "https://hospital.eu/ehr/patient-id",
        "value" : "patient-001"
      },
      {
        "use" : "official",
        "type" : {
          "coding" : [{
            "system" : "https://hl7.fr/ig/fhir/core/CodeSystem/fr-core-cs-v2-0203",
            "code" : "INS-NIR"
          }]
        },
        "system" : "urn:oid:1.2.250.1.213.1.4.8",
        "value" : "1590778035124"
      }],
      "name" : [{
        "use" : "official",
        "family" : "Doré",
        "given" : ["Jeanne"]
      }],
      "gender" : "female",
      "birthDate" : "1959-07-07",
      "deceasedDateTime" : "2025-08-31",
      "_deceasedDateTime" : {
        "extension" : [{
          "url" : "https://interop.aphp.fr/ig/fhir/dm/StructureDefinition/DeathSource",
          "valueCode" : "insee"
        }]
      },
      "address" : [{
        "extension" : [{
          "extension" : [{
            "url" : "latitude",
            "valueDecimal" : 48.88067598033303
          },
          {
            "url" : "longitude",
            "valueDecimal" : 2.331871883929937
          }],
          "url" : "http://hl7.org/fhir/StructureDefinition/geolocation"
        },
        {
          "url" : "https://interop.aphp.fr/ig/fhir/dm/StructureDefinition/PmsiCodeGeo",
          "valueCode" : "75009"
        }],
        "line" : ["Longeray-Gare"],
        "_line" : [{
          "extension" : [{
            "url" : "http://hl7.org/fhir/StructureDefinition/iso21090-ADXP-censusTract",
            "valueString" : "010040102"
          }]
        }],
        "period" : {
          "start" : "2025-08-22"
        }
      }]
    }
  },
  {
    "fullUrl" : "urn:ehr:Encounter/47cdadac-572e-444a-82ac-49ad5f8c4c22",
    "resource" : {
      "resourceType" : "Encounter",
      "id" : "47cdadac-572e-444a-82ac-49ad5f8c4c22",
      "identifier" : [{
        "type" : {
          "coding" : [{
            "system" : "https://hl7.fr/ig/fhir/core/CodeSystem/fr-core-cs-identifier-type",
            "code" : "VN"
          }]
        },
        "system" : "https://hospital.eu/ehr/pmsi-id",
        "value" : "pmsi-001"
      }],
      "status" : "finished",
      "class" : {
        "system" : "http://terminology.hl7.org/CodeSystem/v3-ActCode",
        "code" : "IMP",
        "display" : "inpatient encounter"
      },
      "subject" : {
        "reference" : "Patient/335e88ca-a2d7-4caa-95a8-06f55f3b3c4e",
        "type" : "Patient"
      },
      "period" : {
        "start" : "2025-08-22",
        "end" : "2025-08-22"
      },
      "hospitalization" : {
        "admitSource" : {
          "text" : "8 - Domicile"
        },
        "dischargeDisposition" : {
          "text" : "8 - Domicile"
        }
      }
    }
  },
  {
    "fullUrl" : "urn:ehr:Condition/6ab25181-a455-4abe-bb43-5d9e4a37e1df",
    "resource" : {
      "resourceType" : "Condition",
      "id" : "6ab25181-a455-4abe-bb43-5d9e4a37e1df",
      "identifier" : [{
        "system" : "https://hospital.eu/ehr/diagnostic-id",
        "value" : "diag-001"
      }],
      "clinicalStatus" : {
        "coding" : [{
          "system" : "http://terminology.hl7.org/CodeSystem/condition-clinical",
          "code" : "active",
          "display" : "Active"
        }]
      },
      "verificationStatus" : {
        "coding" : [{
          "system" : "http://terminology.hl7.org/CodeSystem/condition-ver-status",
          "code" : "confirmed",
          "display" : "Confirmed"
        }]
      },
      "category" : [{
        "coding" : [{
          "system" : "http://terminology.hl7.org/CodeSystem/condition-category",
          "code" : "encounter-diagnosis",
          "display" : "Encounter Diagnosis"
        }]
      },
      {
        "text" : "DP"
      }],
      "code" : {
        "coding" : [{
          "system" : "http://hl7.org/fhir/sid/icd-10",
          "code" : "E11.9"
        }],
        "text" : "Diabète sucré de type 2, sans complication"
      },
      "subject" : {
        "reference" : "Patient/335e88ca-a2d7-4caa-95a8-06f55f3b3c4e",
        "type" : "Patient"
      },
      "encounter" : {
        "reference" : "Encounter/47cdadac-572e-444a-82ac-49ad5f8c4c22",
        "type" : "Encounter"
      },
      "recordedDate" : "2025-08-22"
    }
  },
  {
    "fullUrl" : "urn:ehr:Condition/fb1529ac-eb76-4a7f-84ea-21ab332bc50f",
    "resource" : {
      "resourceType" : "Condition",
      "id" : "fb1529ac-eb76-4a7f-84ea-21ab332bc50f",
      "identifier" : [{
        "system" : "https://hospital.eu/ehr/diagnostic-id",
        "value" : "diag-002"
      }],
      "clinicalStatus" : {
        "coding" : [{
          "system" : "http://terminology.hl7.org/CodeSystem/condition-clinical",
          "code" : "active",
          "display" : "Active"
        }]
      },
      "verificationStatus" : {
        "coding" : [{
          "system" : "http://terminology.hl7.org/CodeSystem/condition-ver-status",
          "code" : "confirmed",
          "display" : "Confirmed"
        }]
      },
      "category" : [{
        "coding" : [{
          "system" : "http://terminology.hl7.org/CodeSystem/condition-category",
          "code" : "encounter-diagnosis",
          "display" : "Encounter Diagnosis"
        }]
      },
      {
        "text" : "DAS"
      }],
      "code" : {
        "coding" : [{
          "system" : "http://hl7.org/fhir/sid/icd-10",
          "code" : "E66.0"
        }],
        "text" : "Obésité due à un excès calorique"
      },
      "subject" : {
        "reference" : "Patient/335e88ca-a2d7-4caa-95a8-06f55f3b3c4e",
        "type" : "Patient"
      },
      "encounter" : {
        "reference" : "Encounter/47cdadac-572e-444a-82ac-49ad5f8c4c22",
        "type" : "Encounter"
      },
      "recordedDate" : "2025-08-22"
    }
  },
  {
    "fullUrl" : "urn:ehr:Condition/a8c1b878-82bf-4308-b4d5-1a758431b88c",
    "resource" : {
      "resourceType" : "Condition",
      "id" : "a8c1b878-82bf-4308-b4d5-1a758431b88c",
      "identifier" : [{
        "system" : "https://hospital.eu/ehr/diagnostic-id",
        "value" : "diag-003"
      }],
      "clinicalStatus" : {
        "coding" : [{
          "system" : "http://terminology.hl7.org/CodeSystem/condition-clinical",
          "code" : "active",
          "display" : "Active"
        }]
      },
      "verificationStatus" : {
        "coding" : [{
          "system" : "http://terminology.hl7.org/CodeSystem/condition-ver-status",
          "code" : "confirmed",
          "display" : "Confirmed"
        }]
      },
      "category" : [{
        "coding" : [{
          "system" : "http://terminology.hl7.org/CodeSystem/condition-category",
          "code" : "encounter-diagnosis",
          "display" : "Encounter Diagnosis"
        }]
      },
      {
        "text" : "DAS"
      }],
      "code" : {
        "coding" : [{
          "system" : "http://hl7.org/fhir/sid/icd-10",
          "code" : "N18.3"
        }],
        "text" : "Maladie rénale chronique, stade 3"
      },
      "subject" : {
        "reference" : "Patient/335e88ca-a2d7-4caa-95a8-06f55f3b3c4e",
        "type" : "Patient"
      },
      "encounter" : {
        "reference" : "Encounter/47cdadac-572e-444a-82ac-49ad5f8c4c22",
        "type" : "Encounter"
      },
      "recordedDate" : "2025-08-22"
    }
  },
  {
    "fullUrl" : "urn:ehr:Procedure/dd0d2a50-3ffa-42bf-9dc4-48649dbd067b",
    "resource" : {
      "resourceType" : "Procedure",
      "id" : "dd0d2a50-3ffa-42bf-9dc4-48649dbd067b",
      "identifier" : [{
        "system" : "https://hospital.eu/ehr/acte-id",
        "value" : "acte-001"
      }],
      "status" : "completed",
      "code" : {
        "coding" : [{
          "system" : "https://interop.aphp.fr/ig/fhir/dm/CodeSystem/Ccam",
          "code" : "DEQP003...01."
        }],
        "text" : "Électrocardiographie sur au moins 12 dérivations - Phase par defaut - 1° activité chir/med - NA"
      },
      "subject" : {
        "reference" : "Patient/335e88ca-a2d7-4caa-95a8-06f55f3b3c4e",
        "type" : "Patient"
      },
      "encounter" : {
        "reference" : "Encounter/47cdadac-572e-444a-82ac-49ad5f8c4c22",
        "type" : "Encounter"
      },
      "performedDateTime" : "2025-08-22T06:50:41.581Z"
    }
  },
  {
    "fullUrl" : "urn:ehr:Procedure/0ab15691-2620-41f1-937b-ac94b1dde802",
    "resource" : {
      "resourceType" : "Procedure",
      "id" : "0ab15691-2620-41f1-937b-ac94b1dde802",
      "identifier" : [{
        "system" : "https://hospital.eu/ehr/acte-id",
        "value" : "acte-002"
      }],
      "status" : "completed",
      "code" : {
        "coding" : [{
          "system" : "https://interop.aphp.fr/ig/fhir/dm/CodeSystem/Ccam",
          "code" : "BGQP002...01."
        }],
        "text" : "Examen du fond d'oeil par biomicroscopie avec verre de contact - Phase par defaut - 1° activité chir/med - NA"
      },
      "subject" : {
        "reference" : "Patient/335e88ca-a2d7-4caa-95a8-06f55f3b3c4e",
        "type" : "Patient"
      },
      "encounter" : {
        "reference" : "Encounter/47cdadac-572e-444a-82ac-49ad5f8c4c22",
        "type" : "Encounter"
      },
      "performedDateTime" : "2025-08-22T07:44:18.112Z"
    }
  },
  {
    "fullUrl" : "urn:ehr:Observation/c07ce598-2985-4885-95cb-348424b8f9e0",
    "resource" : {
      "resourceType" : "Observation",
      "id" : "c07ce598-2985-4885-95cb-348424b8f9e0",
      "identifier" : [{
        "system" : "https://hospital.eu/ehr/biologie-id",
        "value" : "bio-001"
      }],
      "status" : "final",
      "category" : [{
        "coding" : [{
          "system" : "http://terminology.hl7.org/CodeSystem/observation-category",
          "code" : "laboratory",
          "display" : "Laboratory"
        }]
      }],
      "code" : {
        "coding" : [{
          "system" : "http://loinc.org",
          "code" : "22664-7"
        }],
        "text" : "Dosage de l'urée dans le sang"
      },
      "subject" : {
        "reference" : "Patient/335e88ca-a2d7-4caa-95a8-06f55f3b3c4e",
        "type" : "Patient"
      },
      "effectiveDateTime" : "2025-08-22T06:12:32.711Z",
      "valueQuantity" : {
        "value" : 6.0,
        "unit" : "mmol/L",
        "system" : "http://unitsofmeasure.org",
        "code" : "mmol/L"
      },
      "referenceRange" : [{
        "low" : {
          "value" : 2.5,
          "unit" : "mmol/L",
          "system" : "http://unitsofmeasure.org",
          "code" : "mmol/L"
        },
        "high" : {
          "value" : 7.5,
          "unit" : "mmol/L",
          "system" : "http://unitsofmeasure.org",
          "code" : "mmol/L"
        }
      }]
    }
  },
  {
    "fullUrl" : "urn:ehr:Observation/75f2982b-4160-4a5a-86be-d5eed4c61e1b",
    "resource" : {
      "resourceType" : "Observation",
      "id" : "75f2982b-4160-4a5a-86be-d5eed4c61e1b",
      "identifier" : [{
        "system" : "https://hospital.eu/ehr/biologie-id",
        "value" : "bio-002"
      }],
      "status" : "final",
      "category" : [{
        "coding" : [{
          "system" : "http://terminology.hl7.org/CodeSystem/observation-category",
          "code" : "laboratory",
          "display" : "Laboratory"
        }]
      }],
      "code" : {
        "coding" : [{
          "system" : "http://loinc.org",
          "code" : "14682-9"
        }],
        "text" : "Créatininémie"
      },
      "subject" : {
        "reference" : "Patient/335e88ca-a2d7-4caa-95a8-06f55f3b3c4e",
        "type" : "Patient"
      },
      "effectiveDateTime" : "2025-08-22T06:12:32.000Z",
      "valueQuantity" : {
        "value" : 92.0,
        "unit" : "umol/L",
        "system" : "http://unitsofmeasure.org",
        "code" : "umol/L"
      },
      "referenceRange" : [{
        "low" : {
          "value" : 45.0,
          "unit" : "umol/L",
          "system" : "http://unitsofmeasure.org",
          "code" : "umol/L"
        },
        "high" : {
          "value" : 105.0,
          "unit" : "umol/L",
          "system" : "http://unitsofmeasure.org",
          "code" : "umol/L"
        }
      }]
    }
  },
  {
    "fullUrl" : "urn:ehr:MedicationRequest/90ad71ff-9e7a-4c15-ad8f-b14f05b5a203",
    "resource" : {
      "resourceType" : "MedicationRequest",
      "id" : "90ad71ff-9e7a-4c15-ad8f-b14f05b5a203",
      "identifier" : [{
        "system" : "https://hospital.eu/ehr/prescription-id",
        "value" : "exp-001"
      }],
      "status" : "unknown",
      "intent" : "order",
      "medicationCodeableConcept" : {
        "text" : "Glucophage"
      },
      "subject" : {
        "reference" : "Patient/335e88ca-a2d7-4caa-95a8-06f55f3b3c4e",
        "type" : "Patient"
      },
      "authoredOn" : "2025-08-30",
      "requester" : {
        "type" : "Practitioner",
        "display" : "dr jay"
      },
      "dosageInstruction" : [{
        "text" : "Prendre 850 mg deux fois par jour pendant les repas",
        "timing" : {
          "repeat" : {
            "frequency" : 2,
            "period" : 1,
            "periodUnit" : "d",
            "when" : ["C"]
          }
        },
        "route" : {
          "coding" : [{
            "system" : "https://hl7.fr/ig/fhir/core/CodeSystem/fr-core-cs-route-of-administration",
            "code" : "20053000",
            "display" : "Voie orale"
          }]
        },
        "doseAndRate" : [{
          "doseQuantity" : {
            "value" : 850,
            "unit" : "mg",
            "system" : "http://unitsofmeasure.org",
            "code" : "mg"
          }
        }],
        "maxDosePerPeriod" : {
          "numerator" : {
            "value" : 1700,
            "unit" : "mg",
            "system" : "http://unitsofmeasure.org",
            "code" : "mg"
          },
          "denominator" : {
            "value" : 1,
            "unit" : "d",
            "system" : "http://unitsofmeasure.org",
            "code" : "d"
          }
        }
      }]
    }
  }]
}